2-THETA,INTENSITY
2,4352
2.05,6619
2.1,6856
2.15,6352
2.2,7596
2.25,5032
2.3,6895
2.35,4916
2.4,6049
2.45,6212
2.5,5067
2.55,6125
2.6,4431
2.65,5179
2.7,4983
2.75,4434
2.8,4295
2.85,4322
2.9,4157
2.95,3882
3,3856
3.05,3739
3.1,3291
3.15,3360
3.2,3667
3.25,2966
3.3,3260
3.35,2722
3.4,2820
3.45,3064
3.5,2565
3.55,2646
3.6,2472
3.65,2504
3.7,2528
3.75,1897
3.8,2144
3.85,1953
3.9,2228
3.95,2308
4,1798
4.05,2089
4.1,1704
4.15,1892
4.2,1829
4.25,1685
4.3,1611
4.35,1556
4.4,1707
4.45,1534
4.5,1514
4.55,1565
4.6,1468
4.65,1483
4.7,1570
4.75,1376
4.8,1305
4.85,1267
4.9,1285
4.95,1362
5,1289
5.05,1219
5.1,1250
5.15,1182
5.2,1257
5.25,1182
5.3,1199
5.35,1090
5.4,1050
5.45,1103
5.5,1034
5.55,1067
5.6,1056
5.65,1007
5.7,1004
5.75,983
5.8,1082
5.85,950
5.9,998
5.95,954
6,941
6.05,882
6.1,978
6.15,880
6.2,917
6.25,909
6.3,793
6.35,834
6.4,822
6.45,769
6.5,779
6.55,817
6.6,794
6.65,789
6.7,761
6.75,831
6.8,724
6.85,855
6.9,822
6.95,749
7,717
7.05,756
7.1,751
7.15,751
7.2,765
7.25,870
7.3,687
7.35,676
7.4,758
7.45,726
7.5,695
7.55,704
7.6,675
7.65,641
7.7,689
7.75,692
7.8,707
7.85,708
7.9,664
7.95,635
8,629
8.05,723
8.1,689
8.15,674
8.2,695
8.25,704
8.3,715
8.35,688
8.4,665
8.45,664
8.5,655
8.55,667
8.6,685
8.65,669
8.7,632
8.75,682
8.8,682
8.85,690
8.9,676
8.95,679
9,679
9.05,669
9.1,700
9.15,710
9.2,718
9.25,669
9.3,631
9.35,620
9.4,718
9.45,690
9.5,640
9.55,718
9.6,645
9.65,659
9.7,725
9.75,700
9.8,675
9.85,697
9.9,675
9.95,684
10,695
10.05,721
10.1,675
10.15,719
10.2,636
10.25,747
10.3,711
10.35,630
10.4,726
10.45,680
10.5,700
10.55,703
10.6,726
10.65,696
10.7,709
10.75,706
10.8,654
10.85,666
10.9,694
10.95,675
11,717
11.05,597
11.1,604
11.15,635
11.2,602
11.25,637
11.3,569
11.35,618
11.4,553
11.45,545
11.5,562
11.55,550
11.6,551
11.65,559
11.7,537
11.75,559
11.8,540
11.85,531
11.9,518
11.95,538
12,540
12.05,559
12.1,552
12.15,501
12.2,496
12.25,494
12.3,540
12.35,537
12.4,554
12.45,526
12.5,522
12.55,544
12.6,507
12.65,499
12.7,493
12.75,521
12.8,548
12.85,510
12.9,540
12.95,510
13,568
13.05,523
13.1,519
13.15,478
13.2,559
13.25,518
13.3,592
13.35,564
13.4,550
13.45,600
13.5,599
13.55,627
13.6,660
13.65,759
13.7,799
13.75,816
13.8,913
13.85,890
13.9,866
13.95,881
14,807
14.05,746
14.1,698
14.15,679
14.2,610
14.25,549
14.3,561
14.35,553
14.4,559
14.45,555
14.5,544
14.55,532
14.6,525
14.65,503
14.7,488
14.75,519
14.8,533
14.85,528
14.9,556
14.95,500
15,513
15.05,512
15.1,518
15.15,502
15.2,515
15.25,534
15.3,506
15.35,538
15.4,466
15.45,480
15.5,495
15.55,528
15.6,559
15.65,479
15.7,480
15.75,520
15.8,536
15.85,578
15.9,597
15.95,620
16,611
16.05,633
16.1,585
16.15,621
16.2,552
16.25,609
16.3,580
16.35,556
16.4,530
16.45,525
16.5,491
16.55,485
16.6,494
16.65,527
16.7,551
16.75,565
16.8,471
16.85,519
16.9,523
16.95,518
17,528
17.05,557
17.1,573
17.15,534
17.2,582
17.25,569
17.3,598
17.35,580
17.4,622
17.45,625
17.5,644
17.55,633
17.6,579
17.65,608
17.7,578
17.75,602
17.8,562
17.85,574
17.9,591
17.95,600
18,614
18.05,619
18.1,615
18.15,619
18.2,619
18.25,642
18.3,624
18.35,628
18.4,610
18.45,608
18.5,577
18.55,606
18.6,625
18.65,634
18.7,628
18.75,647
18.8,610
18.85,665
18.9,605
18.95,591
19,626
19.05,601
19.1,643
19.15,623
19.2,618
19.25,684
19.3,665
19.35,687
19.4,705
19.45,745
19.5,730
19.55,765
19.6,770
19.65,760
19.7,770
19.75,766
19.8,733
19.85,728
19.9,727
19.95,676
20,700
20.05,671
20.1,689
20.15,716
20.2,709
20.25,735
20.3,768
20.35,793
20.4,775
20.45,778
20.5,765
20.55,736
20.6,726
20.65,726
20.7,716
20.75,674
20.8,646
20.85,637
20.9,643
20.95,655
21,617
21.05,665
21.1,660
21.15,643
21.2,687
21.25,679
21.3,657
21.35,655
21.4,696
21.45,714
21.5,698
21.55,680
21.6,653
21.65,656
21.7,682
21.75,672
21.8,666
21.85,699
21.9,654
21.95,709
22,693
22.05,717
22.1,699
22.15,691
22.2,713
22.25,696
22.3,688
22.35,685
22.4,712
22.45,748
22.5,734
22.55,770
22.6,761
22.65,743
22.7,782
22.75,744
22.8,784
22.85,788
22.9,784
22.95,790
23,806
23.05,806
23.1,825
23.15,864
23.2,834
23.25,796
23.3,819
23.35,815
23.4,827
23.45,813
23.5,805
23.55,800
23.6,775
23.65,790
23.7,818
23.75,779
23.8,766
23.85,773
23.9,789
23.95,847
24,802
24.05,797
24.1,803
24.15,791
24.2,788
24.25,822
24.3,801
24.35,809
24.4,817
24.45,857
24.5,848
24.55,822
24.6,844
24.65,827
24.7,824
24.75,845
24.8,851
24.85,855
24.9,823
24.95,824
25,793
25.05,813
25.1,778
25.15,798
25.2,844
25.25,822
25.3,849
25.35,883
25.4,939
25.45,1012
25.5,1142
25.55,1179
25.6,1237
25.65,1315
25.7,1301
25.75,1224
25.8,1100
25.85,1001
25.9,927
25.95,856
26,844
26.05,864
26.1,853
26.15,847
26.2,846
26.25,889
26.3,848
26.35,838
26.4,854
26.45,884
26.5,927
26.55,956
26.6,971
26.65,1030
26.7,1029
26.75,1033
26.8,966
26.85,942
26.9,867
26.95,846
27,846
27.05,797
27.1,820
27.15,806
27.2,814
27.25,809
27.3,831
27.35,857
27.4,904
27.45,926
27.5,1013
27.55,1073
27.6,1140
27.65,1103
27.7,1101
27.75,1070
27.8,1028
27.85,973
27.9,927
27.95,923
28,929
28.05,926
28.1,942
28.15,928
28.2,969
28.25,988
28.3,1007
28.35,1007
28.4,1034
28.45,1042
28.5,1028
28.55,1037
28.6,996
28.65,990
28.7,914
28.75,904
28.8,856
28.85,840
28.9,846
28.95,858
29,848
29.05,860
29.1,870
29.15,876
29.2,934
29.25,979
29.3,1051
29.35,1138
29.4,1327
29.45,1690
29.5,2163
29.55,2685
29.6,3123
29.65,3284
29.7,3337
29.75,2899
29.8,2544
29.85,2058
29.9,1695
29.95,1398
30,1209
30.05,1051
30.1,1011
30.15,961
30.2,940
30.25,926
30.3,920
30.35,901
30.4,897
30.45,893
30.5,909
30.55,946
30.6,908
30.65,953
30.7,936
30.75,973
30.8,1010
30.85,1046
30.9,1055
30.95,1045
31,1122
31.05,1134
31.1,1139
31.15,1152
31.2,1184
31.25,1140
31.3,1136
31.35,1125
31.4,1107
31.45,1095
31.5,1015
31.55,1000
31.6,959
31.65,950
31.7,932
31.75,896
31.8,909
31.85,930
31.9,922
31.95,932
32,940
32.05,1041
32.1,1094
32.15,1195
32.2,1264
32.25,1433
32.3,1563
32.35,1755
32.4,1862
32.45,1863
32.5,1857
32.55,1860
32.6,1844
32.65,1798
32.7,1734
32.75,1563
32.8,1493
32.85,1317
32.9,1269
32.95,1245
33,1222
33.05,1156
33.1,1106
33.15,1088
33.2,1051
33.25,1063
33.3,998
33.35,983
33.4,966
33.45,999
33.5,984
33.55,934
33.6,902
33.65,853
33.7,867
33.75,870
33.8,864
33.85,822
33.9,906
33.95,878
34,842
34.05,872
34.1,866
34.15,837
34.2,846
34.25,822
34.3,793
34.35,807
34.4,800
34.45,851
34.5,792
34.55,860
34.6,875
34.65,857
34.7,889
34.75,912
34.8,915
34.85,890
34.9,903
34.95,868
35,835
35.05,850
35.1,879
35.15,844
35.2,937
35.25,972
35.3,991
35.35,1004
35.4,925
35.45,910
35.5,898
35.55,856
35.6,870
35.65,855
35.7,889
35.75,885
35.8,912
35.85,913
35.9,940
35.95,930
36,965
36.05,986
36.1,1009
36.15,1027
36.2,973
36.25,903
36.3,949
36.35,917
36.4,922
36.45,1063
36.5,1133
36.55,1237
36.6,1365
36.65,1359
36.7,1368
36.75,1246
36.8,1191
36.85,1073
36.9,986
36.95,900
37,844
37.05,870
37.1,786
37.15,795
37.2,830
37.25,792
37.3,760
37.35,799
37.4,769
37.45,743
37.5,755
37.55,747
37.6,708
37.65,696
37.7,671
37.75,707
37.8,659
37.85,685
37.9,673
37.95,673
38,683
38.05,698
38.1,679
38.15,701
38.2,724
38.25,763
38.3,758
38.35,781
38.4,758
38.45,770
38.5,780
38.55,854
38.6,879
38.65,915
38.7,910
38.75,982
38.8,959
38.85,922
38.9,918
38.95,825
39,775
39.05,759
39.1,676
39.15,711
39.2,696
39.25,710
39.3,719
39.35,743
39.4,700
39.45,743
39.5,715
39.55,721
39.6,737
39.65,715
39.7,734
39.75,735
39.8,760
39.85,727
39.9,744
39.95,701
40,692
40.05,702
40.1,696
40.15,739
40.2,689
40.25,733
40.3,747
40.35,735
40.4,745
40.45,734
40.5,750
40.55,771
40.6,718
40.65,762
40.7,801
40.75,803
40.8,801
40.85,839
40.9,884
40.95,901
41,906
41.05,1009
41.1,998
41.15,1072
41.2,1113
41.25,1093
41.3,1127
41.35,1194
41.4,1210
41.45,1263
41.5,1362
41.55,1361
41.6,1446
41.65,1399
41.7,1322
41.75,1268
41.8,1244
41.85,1107
41.9,1021
41.95,952
42,841
42.05,857
42.1,837
42.15,811
42.2,847
42.25,836
42.3,852
42.35,868
42.4,884
42.45,843
42.5,846
42.55,775
42.6,820
42.65,792
42.7,760
42.75,747
42.8,761
42.85,698
42.9,717
42.95,693
43,703
43.05,724
43.1,691
43.15,693
43.2,657
43.25,674
43.3,647
43.35,698
43.4,637
43.45,653
43.5,658
43.55,664
43.6,664
43.65,666
43.7,659
43.75,651
43.8,627
43.85,611
43.9,606
43.95,587
44,637
44.05,647
44.1,624
44.15,672
44.2,638
44.25,665
44.3,655
44.35,662
44.4,664
44.45,637
44.5,608
44.55,647
44.6,656
44.65,681
44.7,700
44.75,731
44.8,679
44.85,722
44.9,721
44.95,774
45,777
45.05,883
45.1,911
45.15,1011
45.2,1055
45.25,1069
45.3,1052
45.35,1073
45.4,1017
45.45,952
45.5,896
45.55,810
45.6,809
45.65,789
45.7,774
45.75,857
45.8,858
45.85,831
45.9,819
45.95,823
46,903
46.05,869
46.1,820
46.15,904
46.2,839
46.25,805
46.3,770
46.35,746
46.4,725
46.45,722
46.5,741
46.55,717
46.6,698
46.65,663
46.7,685
46.75,666
46.8,722
46.85,675
46.9,677
46.95,737
47,643
47.05,698
47.1,638
47.15,651
47.2,647
47.25,670
47.3,700
47.35,702
47.4,710
47.45,722
47.5,775
47.55,824
47.6,859
47.65,915
47.7,962
47.75,966
47.8,1037
47.85,1107
47.9,1028
47.95,1056
48,969
48.05,869
48.1,805
48.15,817
48.2,774
48.25,803
48.3,853
48.35,806
48.4,781
48.45,787
48.5,863
48.55,782
48.6,716
48.65,711
48.7,733
48.75,655
48.8,670
48.85,713
48.9,714
48.95,731
49,724
49.05,677
49.1,726
49.15,698
49.2,696
49.25,669
49.3,660
49.35,696
49.4,675
49.45,730
49.5,714
49.55,696
49.6,729
49.65,731
49.7,693
49.75,704
49.8,709
49.85,742
49.9,725
49.95,734
50,736
50.05,774
50.1,740
50.15,689
50.2,712
50.25,747
50.3,690
50.35,718
50.4,723
50.45,687
50.5,723
50.55,769
50.6,773
50.65,748
50.7,740
50.75,750
50.8,806
50.85,765
50.9,747
50.95,719
51,721
51.05,709
51.1,721
51.15,675
51.2,636
51.25,679
51.3,655
51.35,678
51.4,652
51.45,700
51.5,743
51.55,720
51.6,728
51.65,717
51.7,642
51.75,700
51.8,678
51.85,640
51.9,647
51.95,609
52,629
